Folder: sem-5/ESO205/labs/module 1

File: xrd data.asc
10.01167	3013
10.31366	2993
10.61566	3085
10.91765	3097
11.21965	3287
11.52165	3206
11.82364	3247
12.12564	3153
12.42764	3191
12.72963	3081
13.03163	3040
13.33363	2858
13.63562	2716
13.93762	2574
14.23962	2522
14.54161	2355
14.84361	2399
15.14561	2230
15.4476	2123
15.7496	2065
16.0516	2067
16.35359	2084
16.65559	2106
16.95758	2020
17.25958	1879
17.56158	1984
17.86357	1883
18.16557	1969
18.46757	1862
18.76956	1980
19.07156	2033
19.37356	1936
19.67555	1907
19.97755	1945
20.27955	1816
20.58154	1919
20.88354	1884
21.18554	1910
21.48753	1943
21.78953	1835
22.09153	1826
22.39352	1986
22.69552	1882
22.99751	1889
23.29951	1952
23.60151	1927
23.9035	1858
24.2055	1886
24.5075	1888
24.80949	1988
25.11149	1941
25.41349	1865
25.71548	1811
26.01748	1853
26.31948	1936
26.62147	1820
26.92347	1909
27.22547	1825
27.52746	1834
27.82946	1812
28.13146	1815
28.43345	1795
28.73545	1778
29.03744	1776
29.33944	1818
29.64144	1799
29.94343	1751
30.24543	1844
30.54743	1712
30.84942	1756
31.15142	1818
31.45342	1736
31.75541	1717
32.05741	1735
32.35941	1712
32.6614	1692
32.9634	1747
33.2654	1745
33.56739	1676
33.86939	1757
34.17139	1669
34.47338	1623
34.77538	1676
35.07737	1601
35.37937	1742
35.68137	1668
35.98336	1659
36.28536	1577
36.58736	1662
36.88935	1575
37.19135	1607
37.49335	1530
37.79534	1637
38.09734	1673
38.39934	1633
38.70133	1710
39.00333	1561
39.30533	1612
39.60732	1615
39.90932	1698
40.21132	1576
40.51331	1645
40.81531	1619
41.1173	1565
41.4193	1555
41.7213	1703
42.02329	1638
42.32529	1964
42.62729	2360
42.92928	16152
43.23128	12413
43.53328	2501
43.83527	1912
44.13727	1687
44.43927	1741
44.74126	1727
45.04326	1607
45.34526	1486
45.64725	1679
45.94925	1503
46.25125	1558
46.55324	1598
46.85524	1555
47.15723	1523
47.45923	1536
47.76123	1593
48.06322	1549
48.36522	1565
48.66722	1421
48.96921	1577
49.27121	1754
49.57321	1986
49.8752	4108
50.1772	4548
50.4792	2184
50.78119	1668
51.08319	1642
51.38519	1484
51.68718	1614
51.98918	1459
52.29118	1557
52.59317	1504
52.89517	1441
53.19716	1493
53.49916	1437
53.80116	1522
54.10315	1509
54.40515	1446
54.70715	1434
55.00914	1515
55.31114	1465
55.61314	1432
55.91513	1484
56.21713	1472
56.51913	1447
56.82112	1415
57.12312	1571
57.42512	1427
57.72711	1522
58.02911	1541
58.33111	1381
58.6331	1487
58.9351	1519
59.23709	1432
59.53909	1475
59.84109	1372
60.14308	1425
60.44508	1450
60.74708	1486
61.04907	1364
61.35107	1431
61.65307	1468
61.95506	1448
62.25706	1422
62.55906	1393
62.86105	1463
63.16305	1366
63.46505	1426
63.76704	1415
64.06904	1510
64.37104	1426
64.67303	1499
64.97503	1494
65.27702	1474
65.57902	1497
65.88102	1505
66.18301	1551
66.48501	1472
66.78701	1509
67.089	1484
67.391	1472
67.693	1469
67.99499	1451
68.29699	1543
68.59899	1443
68.90098	1456
69.20298	1504
69.50498	1502
69.80697	1499
70.10897	1465
70.41097	1565
70.71296	1423
71.01496	1513
71.31695	1470
71.61895	1455
71.92095	1420
72.22294	1404
72.52494	1424
72.82694	1399
73.12893	1649
73.43093	1983
73.73293	3948
74.03492	2318
74.33692	1698
74.63892	1467
74.94091	1501
75.24291	1484
75.54491	1436
75.8469	1489
76.1489	1458
76.4509	1519
76.75289	1433
77.05489	1473
77.35688	1507
77.65888	1491
77.96088	1464
78.26287	1466
78.56487	1580
78.86687	1506
79.16886	1542
79.47086	1510
79.77286	1487
80.07485	1584
80.37685	1551
80.67885	1622
80.98084	1562
81.28284	1547
81.58484	1438
81.88683	1481
82.18883	1435
82.49083	1495
82.79282	1507
83.09482	1588
83.39682	1551
83.69881	1554
84.00081	1556
84.3028	1510
84.6048	1539
84.9068	1550
85.20879	1527
85.51079	1584
85.81279	1599
86.11478	1669
86.41678	1523
86.71878	1582
87.02077	1558
87.32277	1536
87.62477	1626
87.92676	1527
88.22876	1697
88.53076	1685
88.83275	1832
89.13475	2288
89.43675	2933
89.73874	2242
90.04074	1761
90.34273	1691
90.64473	1511
90.94673	1574
91.24872	1442
91.55072	1653
91.85272	1589
92.15471	1511
92.45671	1591
92.75871	1567
93.0607	1610
93.3627	1514
93.6647	1598
93.96669	1574
94.26869	1947
94.57069	4423
94.87268	3954
95.17468	2244
95.47668	1685
95.77867	1699
96.08067	1663
96.38266	1674
96.68466	1618
96.98666	1673
97.28865	1581
97.59065	1616
97.89265	1442
98.19464	1547
98.49664	1527
98.79864	1513
99.10063	1519
99.40263	1531
99.70463	1564
99.99349	1575